STUDYID,DOMAIN,USUBJID,SUBJID,RFSTDTC,RFENDTC,RFXSTDTC,RFXENDTC,RFICDTC,SITEID,BRTHDTC,AGE,AGEU,SEX,RACE,ETHNIC,ARMCD,ARM,ACTARMCD,ACTARM,COUNTRY
DEMO-001,DM,DEMO-001-NL01-A101,A101,2022-03-01,2022-08-30,2022-03-01,2022-08-30,2022-02-14,NL01,1968-11-02,53,YEARS,F,WHITE,NOT HISPANIC OR LATINO,PBO,Placebo,PBO,Placebo,NLD
DEMO-001,DM,DEMO-001-NL01-A102,A102,2022-03-08,2023-03-07,2022-03-08,2023-03-07,2022-02-21,NL01,1984-04-27,37,YEARS,M,ASIAN,NOT HISPANIC OR LATINO,ACT,Active 10 mg,ACT,Active 10 mg,NLD
DEMO-001,DM,DEMO-001-BE02-B201,B201,2022-04-19,2022-10-18,2022-04-19,2022-10-18,2022-04-05,BE02,,.,,M,BLACK OR AFRICAN AMERICAN,HISPANIC OR LATINO,ACT,Active 10 mg,ACT,Active 10 mg,BEL
DEMO-001,DM,DEMO-001-BE02-B202,B202,2022-06-13,,2022-06-13,,2022-05-30,BE02,1991-07-13,30,YEARS,F,WHITE,UNKNOWN,PBO,Placebo,PBO,Placebo,BEL
